time,accx,accy,accz
10,-142.00,132.00,70.00
15,-110.00,154.00,6.00
20,-158.00,170.00,62.00
25,-194.00,148.00,80.00
30,-156.00,180.00,56.00
35,-140.00,128.00,-26.00
40,-118.00,138.00,58.00
45,-114.00,122.00,102.00
50,-158.00,96.00,102.00
55,-140.00,150.00,132.00
60,-132.00,110.00,22.00
65,-154.00,174.00,56.00
70,-168.00,158.00,50.00
75,-150.00,120.00,-52.00
80,-192.00,140.00,126.00
85,-136.00,164.00,62.00
90,-100.00,126.00,58.00
95,-126.00,152.00,90.00
100,-112.00,112.00,-44.00
105,-162.00,138.00,36.00
110,-134.00,146.00,16.00
115,-88.00,166.00,40.00
120,-106.00,126.00,64.00
125,-172.00,172.00,14.00
130,-122.00,132.00,42.00
135,-182.00,168.00,48.00
140,-154.00,174.00,50.00
145,-200.00,114.00,18.00
150,-124.00,148.00,22.00
155,-174.00,162.00,12.00
160,-132.00,192.00,40.00
165,-74.00,172.00,72.00
170,-120.00,180.00,56.00
175,-178.00,208.00,-20.00
180,-148.00,148.00,22.00
185,-154.00,182.00,32.00
190,-146.00,136.00,70.00
195,-156.00,176.00,-66.00
200,-102.00,154.00,0.00
205,-122.00,222.00,-20.00
210,-138.00,142.00,14.00
215,-138.00,124.00,84.00
220,-148.00,176.00,-70.00
225,-126.00,106.00,38.00
230,-100.00,70.00,30.00
235,-128.00,132.00,36.00
240,-156.00,168.00,132.00
245,-120.00,200.00,-16.00
250,-162.00,164.00,80.00
255,-136.00,152.00,106.00
260,-154.00,154.00,84.00
265,-142.00,142.00,70.00
270,-164.00,164.00,28.00
275,-112.00,124.00,6.00
280,-166.00,100.00,72.00
285,-178.00,178.00,4.00
290,-178.00,122.00,40.00
295,-102.00,104.00,42.00
300,-110.00,128.00,22.00
305,-142.00,94.00,48.00
310,-126.00,174.00,52.00
315,-112.00,112.00,52.00
320,-226.00,1092.00,-542.00
325,-1610.00,-136.00,1504.00
330,492.00,-1688.00,-2728.00
335,386.00,706.00,-188.00
340,-272.00,1216.00,1366.00
345,-348.00,786.00,274.00
350,-256.00,-252.00,-502.00
355,-190.00,-432.00,-264.00
360,-114.00,396.00,122.00
365,-74.00,438.00,214.00
370,-22.00,-84.00,120.00
375,-144.00,-68.00,-28.00
380,-206.00,322.00,38.00
385,-222.00,272.00,-44.00
390,-132.00,36.00,20.00
395,-114.00,54.00,50.00
400,-124.00,238.00,32.00
405,-136.00,188.00,158.00
410,-146.00,84.00,34.00
415,-168.00,88.00,108.00
420,-166.00,152.00,56.00
425,-150.00,196.00,10.00
430,-118.00,144.00,24.00
435,-118.00,136.00,136.00
440,-146.00,120.00,48.00
445,-176.00,142.00,66.00
450,-174.00,180.00,86.00
455,-144.00,130.00,64.00
460,-190.00,148.00,-46.00
465,-104.00,164.00,36.00
470,-116.00,116.00,62.00
475,-176.00,126.00,74.00
480,-114.00,144.00,58.00
485,-230.00,132.00,10.00
490,-158.00,178.00,34.00
495,-208.00,184.00,108.00
500,-130.00,162.00,56.00
505,-186.00,246.00,30.00
510,-82.00,132.00,36.00
515,-176.00,230.00,-28.00
520,-194.00,200.00,14.00
525,-150.00,104.00,140.00
530,-144.00,134.00,10.00
535,-206.00,56.00,74.00
540,-244.00,60.00,376.00
545,-124.00,100.00,14.00
550,-164.00,114.00,6.00
555,-154.00,118.00,72.00
560,-180.00,118.00,158.00
565,-134.00,152.00,112.00
570,-170.00,96.00,112.00
575,-182.00,138.00,38.00
580,-118.00,130.00,92.00
585,-196.00,132.00,300.00
590,-100.00,-68.00,162.00
595,-188.00,-42.00,-48.00
600,-138.00,412.00,-60.00
605,-146.00,366.00,210.00
610,-222.00,-22.00,36.00
615,-204.00,2.00,-86.00
620,-154.00,194.00,144.00
625,-66.00,194.00,192.00
630,-150.00,144.00,0.00
635,-216.00,56.00,26.00
640,-162.00,110.00,16.00
645,-156.00,150.00,34.00
650,-158.00,142.00,48.00
655,-166.00,126.00,42.00
660,-150.00,160.00,82.00
665,-160.00,190.00,86.00
670,-128.00,118.00,102.00
675,-130.00,98.00,150.00
680,-114.00,48.00,162.00
685,-162.00,160.00,22.00
690,-178.00,118.00,12.00
695,-174.00,216.00,144.00
700,-200.00,216.00,78.00
705,-188.00,146.00,22.00
710,-188.00,178.00,32.00
715,-104.00,158.00,42.00
720,-124.00,178.00,12.00
725,-180.00,226.00,16.00
730,-122.00,200.00,104.00
735,-146.00,158.00,0.00
740,-136.00,128.00,76.00
745,-88.00,154.00,110.00
750,-54.00,110.00,62.00
755,-10.00,92.00,146.00
760,62.00,118.00,26.00
765,34.00,66.00,64.00
770,154.00,34.00,70.00
775,216.00,26.00,60.00
780,200.00,-64.00,188.00
785,254.00,-12.00,-8.00
790,230.00,-194.00,180.00
795,348.00,-268.00,96.00
800,244.00,-314.00,152.00
805,142.00,-188.00,114.00
810,56.00,-144.00,20.00
815,-58.00,-248.00,-22.00
820,-126.00,-198.00,78.00
825,-258.00,-46.00,158.00
830,-112.00,0.00,32.00
835,-38.00,-50.00,56.00
840,58.00,-112.00,112.00
845,46.00,-290.00,60.00
850,-34.00,-324.00,152.00
855,78.00,-116.00,186.00
860,102.00,-26.00,-118.00
865,32.00,-470.00,118.00
870,-34.00,-32.00,-156.00
875,32.00,-468.00,124.00
880,90.00,-48.00,-114.00
885,-160.00,-808.00,224.00
890,-576.00,-466.00,164.00
895,-456.00,-452.00,94.00
900,-252.00,-342.00,-206.00
905,-448.00,-402.00,68.00
910,-342.00,-606.00,254.00
915,-438.00,-464.00,-206.00
920,-372.00,-672.00,-20.00
925,-212.00,-552.00,148.00
930,-376.00,-556.00,160.00
935,-674.00,-622.00,72.00
940,-414.00,-560.00,-108.00
945,-410.00,-396.00,-110.00
950,-386.00,-596.00,20.00
955,-504.00,-474.00,-102.00
960,-376.00,-616.00,-270.00
965,-246.00,-438.00,-48.00
970,-396.00,-612.00,240.00
975,-246.00,-596.00,222.00
980,-316.00,-220.00,-288.00
985,-350.00,-558.00,-106.00
990,-250.00,-346.00,274.00
995,-634.00,-468.00,-14.00
1000,-348.00,-396.00,-216.00
1005,-236.00,-280.00,20.00
1010,-308.00,-336.00,-402.00
1015,-184.00,-282.00,122.00
1020,-360.00,-54.00,276.00
1025,-332.00,-346.00,486.00
1030,-188.00,-208.00,-556.00
1035,-412.00,-124.00,852.00
1040,234.00,128.00,-492.00
1045,-170.00,2.00,654.00
1050,-150.00,-80.00,182.00
1055,-126.00,2.00,378.00
1060,-10.00,-50.00,60.00
1065,-230.00,222.00,-52.00
1070,362.00,598.00,-268.00
1075,292.00,206.00,168.00
1080,206.00,516.00,74.00
1085,242.00,250.00,148.00
1090,292.00,424.00,136.00
1095,80.00,308.00,10.00
1100,-64.00,292.00,-62.00
1105,288.00,378.00,-96.00
1110,12.00,230.00,28.00
1115,-128.00,252.00,-168.00
1120,-40.00,278.00,-106.00
1125,-30.00,50.00,106.00
1130,-38.00,0.00,376.00
1135,-292.00,254.00,-66.00
1140,-46.00,94.00,214.00
1145,-210.00,312.00,-360.00
1150,10.00,108.00,-100.00
1155,-122.00,334.00,-352.00
1160,2.00,348.00,-10.00
1165,-122.00,362.00,-96.00
1170,8.00,128.00,192.00
1175,-20.00,364.00,194.00
1180,168.00,518.00,-72.00
1185,36.00,104.00,86.00
1190,156.00,450.00,226.00
1195,188.00,212.00,-136.00
1200,92.00,162.00,-170.00
1205,6.00,318.00,60.00
1210,48.00,44.00,304.00
1215,-78.00,156.00,-98.00
1220,-32.00,0.00,-116.00
1225,-236.00,48.00,124.00
1230,-88.00,-98.00,582.00
1235,-248.00,284.00,136.00
1240,-54.00,300.00,-182.00
1245,-102.00,214.00,-238.00
1250,-110.00,578.00,-308.00
1255,322.00,548.00,-200.00
1260,96.00,562.00,-356.00
1265,-58.00,312.00,8.00
1270,-98.00,118.00,60.00
1275,-166.00,302.00,116.00
1280,8.00,318.00,152.00
1285,-394.00,126.00,0.00
1290,-130.00,294.00,76.00
1295,-162.00,110.00,498.00
1300,-166.00,72.00,140.00
1305,-294.00,156.00,154.00
1310,-374.00,72.00,0.00
1315,-148.00,-126.00,134.00
1320,-160.00,-160.00,-30.00
1325,-232.00,-126.00,32.00
1330,-504.00,-114.00,192.00
1335,-388.00,-276.00,-128.00
1340,-400.00,-88.00,230.00
1345,-270.00,-106.00,578.00
1350,-336.00,392.00,102.00
1355,-526.00,24.00,160.00
1360,-580.00,214.00,140.00
1365,-344.00,244.00,164.00
1370,-312.00,340.00,98.00
1375,-390.00,384.00,-160.00
1380,-254.00,622.00,132.00
1385,-144.00,396.00,122.00
1390,-72.00,582.00,-70.00
1395,-264.00,490.00,278.00
1400,302.00,770.00,-172.00
1405,14.00,1130.00,14.00
1410,92.00,1126.00,8.00
1415,302.00,1072.00,-80.00
1420,104.00,1216.00,416.00
1425,50.00,1180.00,-78.00
1430,152.00,1386.00,92.00
1435,106.00,1444.00,-210.00
1440,234.00,1576.00,224.00
1445,238.00,1438.00,52.00
1450,136.00,1594.00,-58.00
1455,268.00,1306.00,-132.00
1460,286.00,1454.00,-144.00
1465,-168.00,1164.00,-6.00
1470,116.00,1240.00,234.00
1475,-112.00,822.00,212.00
1480,-120.00,1182.00,160.00
1485,-140.00,988.00,12.00
1490,-184.00,1024.00,40.00
1495,-262.00,1024.00,14.00
1500,-348.00,666.00,-224.00
1505,-422.00,604.00,20.00
1510,-390.00,526.00,126.00
1515,-390.00,270.00,-48.00
1520,-326.00,342.00,190.00
1525,-404.00,406.00,-26.00
1530,-524.00,326.00,-16.00
1535,-512.00,270.00,114.00
1540,-598.00,312.00,30.00
1545,-354.00,318.00,146.00
1550,-440.00,278.00,16.00
1555,-258.00,272.00,42.00
1560,-274.00,286.00,-92.00
1565,-250.00,176.00,8.00
1570,-156.00,182.00,94.00
1575,-336.00,-56.00,32.00
1580,-194.00,90.00,2.00
1585,-306.00,-52.00,-34.00
1590,-210.00,-110.00,156.00
1595,-70.00,22.00,42.00
1600,-212.00,-92.00,-40.00
1605,-164.00,-66.00,68.00
1610,-46.00,-62.00,20.00
1615,-374.00,-204.00,108.00
1620,-344.00,-80.00,10.00
1625,-266.00,-248.00,114.00
1630,-396.00,-92.00,-46.00
1635,-356.00,128.00,136.00
1640,-456.00,-40.00,24.00
1645,-488.00,14.00,158.00
1650,-280.00,314.00,-16.00
1655,-284.00,262.00,80.00
1660,-122.00,94.00,42.00
1665,-72.00,104.00,144.00
1670,-82.00,128.00,70.00
1675,-202.00,324.00,-74.00
1680,-244.00,488.00,-164.00
1685,-184.00,316.00,-20.00
1690,-382.00,180.00,216.00
1695,-162.00,464.00,20.00
1700,-338.00,334.00,-120.00
1705,-224.00,376.00,174.00
1710,-360.00,-88.00,212.00
1715,-422.00,146.00,-102.00
1720,-248.00,-30.00,292.00
1725,-274.00,252.00,-102.00
1730,-214.00,38.00,136.00
1735,-220.00,156.00,-104.00
1740,-276.00,106.00,408.00
1745,-282.00,252.00,44.00
1750,-330.00,160.00,70.00
1755,-150.00,192.00,-12.00
1760,-118.00,186.00,-206.00
1765,-132.00,118.00,90.00
1770,-256.00,206.00,30.00
1775,-218.00,186.00,-48.00
1780,-170.00,190.00,-96.00
1785,-264.00,-136.00,100.00
1790,-380.00,-122.00,252.00
1795,-340.00,-38.00,-32.00
1800,-406.00,-58.00,150.00
1805,-392.00,-128.00,374.00
1810,28.00,476.00,-244.00
1815,-54.00,-80.00,82.00
1820,146.00,454.00,-44.00
1825,-356.00,-398.00,208.00
1830,30.00,418.00,52.00
1835,-214.00,76.00,336.00
1840,-248.00,20.00,-74.00
1845,-196.00,-16.00,520.00
1850,-316.00,84.00,-294.00
1855,-178.00,-302.00,162.00
1860,-238.00,226.00,-106.00
1865,-562.00,-468.00,-212.00
1870,-596.00,-180.00,-94.00
1875,-306.00,-14.00,436.00
1880,-240.00,-472.00,-24.00
1885,-446.00,-170.00,-136.00
1890,-330.00,220.00,-226.00
1895,-156.00,46.00,24.00
1900,-42.00,22.00,334.00
1905,6.00,150.00,372.00
1910,-58.00,16.00,-110.00
1915,-364.00,284.00,92.00
1920,-278.00,174.00,82.00
1925,-168.00,-72.00,36.00
1930,-376.00,-64.00,-28.00
1935,-242.00,174.00,-208.00
1940,-92.00,236.00,176.00
1945,78.00,228.00,392.00
1950,-80.00,80.00,762.00
1955,-56.00,266.00,74.00
1960,-248.00,390.00,-300.00
1965,-286.00,268.00,-290.00
1970,-136.00,44.00,488.00
1975,-436.00,370.00,142.00
1980,-254.00,386.00,138.00
1985,-152.00,330.00,2.00
1990,-134.00,518.00,86.00
1995,-222.00,622.00,106.00
2000,-328.00,646.00,-384.00
2005,-194.00,494.00,-518.00
2010,-512.00,564.00,-130.00
2015,-446.00,708.00,-42.00
2020,-266.00,622.00,-220.00
2025,-278.00,426.00,128.00
2030,-284.00,384.00,132.00
2035,-182.00,480.00,154.00
2040,-406.00,484.00,-118.00
2045,-522.00,360.00,32.00
2050,-386.00,420.00,116.00
2055,-408.00,428.00,-366.00
2060,-526.00,392.00,-38.00
2065,-488.00,472.00,292.00
2070,-606.00,330.00,-22.00
2075,-360.00,426.00,-252.00
2080,-568.00,380.00,-16.00
2085,-426.00,228.00,42.00
2090,-496.00,318.00,-78.00
2095,-472.00,272.00,-94.00
2100,-6.00,610.00,106.00
2105,-22.00,766.00,-182.00
2110,242.00,802.00,56.00
2115,-110.00,632.00,358.00
2120,-168.00,502.00,82.00
2125,-38.00,480.00,2.00
2130,-124.00,428.00,166.00
2135,-252.00,462.00,-160.00
2140,-144.00,198.00,114.00
2145,-112.00,220.00,124.00
2150,-204.00,258.00,18.00
2155,70.00,490.00,110.00
2160,-154.00,376.00,272.00
2165,-70.00,510.00,-132.00
2170,-280.00,270.00,-30.00
2175,-222.00,284.00,114.00
2180,-202.00,302.00,-90.00
2185,-172.00,328.00,56.00
2190,-312.00,216.00,-22.00
2195,-308.00,54.00,186.00
2200,-360.00,8.00,56.00
2205,-466.00,212.00,-56.00
2210,-408.00,122.00,-304.00
2215,-306.00,216.00,6.00
2220,-152.00,234.00,-128.00
2225,-182.00,196.00,-6.00
2230,-284.00,20.00,16.00
2235,-242.00,154.00,86.00
2240,-312.00,298.00,18.00
2245,-252.00,198.00,36.00
2250,-170.00,306.00,162.00
2255,-240.00,392.00,-36.00
2260,-274.00,216.00,118.00
2265,-94.00,274.00,224.00
2270,-266.00,262.00,132.00
2275,-226.00,248.00,-34.00
2280,-180.00,296.00,76.00
2285,-214.00,324.00,0.00
2290,-204.00,312.00,32.00
2295,-64.00,236.00,24.00
2300,-168.00,378.00,46.00
2305,-236.00,232.00,108.00
2310,-200.00,210.00,88.00
2315,-292.00,284.00,-16.00
2320,-262.00,292.00,128.00
2325,-268.00,150.00,70.00
2330,-356.00,322.00,54.00
2335,-268.00,376.00,-48.00
2340,-162.00,400.00,168.00
2345,-220.00,328.00,26.00
2350,-156.00,300.00,16.00
2355,-176.00,308.00,-30.00
2360,-224.00,314.00,158.00
2365,-200.00,278.00,-90.00
2370,-114.00,230.00,82.00
2375,-128.00,112.00,28.00
2380,-56.00,36.00,140.00
2385,-86.00,158.00,68.00
2390,-128.00,178.00,76.00
2395,-156.00,200.00,50.00
2400,-242.00,146.00,148.00
2405,-112.00,202.00,56.00
2410,-136.00,62.00,68.00
2415,-48.00,82.00,0.00
2420,-316.00,-20.00,94.00
2425,-154.00,84.00,30.00
2430,-182.00,-20.00,-2.00
2435,-288.00,58.00,-8.00
2440,-196.00,70.00,96.00
2445,-284.00,140.00,94.00
2450,-228.00,60.00,-46.00
2455,-274.00,70.00,142.00
2460,-260.00,156.00,76.00
2465,-262.00,310.00,122.00
2470,-320.00,248.00,158.00
2475,-332.00,238.00,8.00
2480,-286.00,176.00,72.00
2485,-282.00,318.00,88.00
2490,-212.00,326.00,-10.00
2495,-204.00,262.00,32.00
2500,-234.00,300.00,42.00
2505,-84.00,464.00,42.00
2510,-90.00,356.00,66.00
2515,-80.00,418.00,-36.00
2520,-218.00,256.00,92.00
2525,-190.00,248.00,36.00
2530,-204.00,308.00,18.00
2535,-300.00,306.00,18.00
2540,-224.00,380.00,-6.00
2545,-232.00,350.00,-52.00
2550,-256.00,312.00,56.00
2555,-212.00,342.00,32.00
2560,-290.00,324.00,28.00
2565,-264.00,376.00,14.00
2570,-240.00,398.00,60.00
2575,-288.00,370.00,-38.00
2580,-252.00,306.00,92.00
2585,-332.00,316.00,18.00
2590,-314.00,352.00,18.00
2595,-376.00,352.00,30.00
2600,-334.00,422.00,54.00
2605,-312.00,398.00,88.00
2610,-242.00,296.00,112.00
2615,-144.00,278.00,42.00
2620,-248.00,256.00,82.00
2625,-238.00,258.00,104.00
2630,-172.00,218.00,74.00
2635,-350.00,50.00,410.00
2640,-252.00,526.00,-188.00
2645,-204.00,140.00,136.00
2650,-324.00,208.00,-40.00
2655,-244.00,294.00,30.00
2660,-160.00,198.00,46.00
2665,-202.00,174.00,138.00
2670,-218.00,172.00,40.00
2675,-210.00,124.00,108.00
2680,-186.00,36.00,44.00
2685,-186.00,154.00,64.00
2690,-226.00,136.00,108.00
2695,-138.00,176.00,50.00
2700,-224.00,218.00,36.00
2705,-232.00,222.00,0.00
2710,-220.00,210.00,102.00
2715,-272.00,206.00,154.00
2720,-194.00,192.00,146.00
2725,-212.00,148.00,30.00
2730,-226.00,280.00,-50.00
2735,-224.00,192.00,82.00
2740,-160.00,216.00,90.00
2745,-210.00,242.00,86.00
2750,-268.00,206.00,40.00
2755,-220.00,266.00,78.00
2760,-238.00,306.00,-4.00
2765,-194.00,314.00,30.00
2770,-230.00,266.00,4.00
2775,-274.00,242.00,36.00
2780,-224.00,286.00,38.00
2785,-252.00,218.00,112.00
2790,-226.00,304.00,30.00
2795,-222.00,274.00,40.00
2800,-260.00,200.00,40.00
2805,-194.00,220.00,0.00
2810,-204.00,260.00,54.00
2815,-176.00,190.00,24.00
2820,-216.00,186.00,52.00
2825,-204.00,234.00,30.00
2830,-210.00,214.00,-26.00
2835,-200.00,186.00,-62.00
2840,-212.00,248.00,66.00
2845,-206.00,220.00,108.00
2850,-232.00,200.00,56.00
2855,-206.00,230.00,-16.00
2860,-220.00,246.00,-16.00
2865,-248.00,218.00,96.00
2870,-232.00,220.00,14.00
2875,-262.00,280.00,24.00
2880,-204.00,206.00,40.00
2885,-256.00,236.00,52.00
2890,-222.00,264.00,4.00
2895,-230.00,290.00,76.00
2900,-202.00,204.00,76.00
2905,-228.00,214.00,58.00
2910,-194.00,124.00,-4.00
2915,-212.00,144.00,52.00
2920,-160.00,166.00,72.00
2925,-170.00,214.00,-34.00
2930,-230.00,200.00,64.00
2935,-248.00,178.00,20.00
2940,-234.00,268.00,26.00
2945,-268.00,274.00,36.00
2950,-244.00,330.00,42.00
2955,-256.00,288.00,34.00
2960,-202.00,374.00,-22.00
2965,-258.00,280.00,62.00
2970,-256.00,294.00,102.00
2975,-246.00,410.00,60.00
2980,-250.00,298.00,0.00
2985,-184.00,304.00,40.00
2990,-230.00,254.00,52.00
2995,-164.00,170.00,82.00
3000,-162.00,152.00,86.00
3005,-154.00,130.00,44.00
3010,-194.00,40.00,94.00
3015,-170.00,72.00,80.00
3020,-174.00,190.00,-10.00
3025,-162.00,78.00,46.00
3030,-162.00,76.00,100.00
3035,-234.00,134.00,128.00
3040,-178.00,120.00,20.00
3045,-192.00,124.00,102.00
3050,-224.00,144.00,22.00
3055,-210.00,220.00,26.00
3060,-238.00,204.00,50.00
3065,-210.00,260.00,-4.00
3070,-252.00,234.00,50.00
3075,-218.00,226.00,118.00
3080,-226.00,284.00,16.00
3085,-250.00,252.00,86.00
3090,-270.00,234.00,114.00
3095,-198.00,264.00,92.00
3100,-228.00,270.00,-18.00
3105,-294.00,288.00,52.00
3110,-236.00,294.00,70.00
3115,-252.00,318.00,86.00
3120,-228.00,332.00,48.00
3125,-246.00,304.00,86.00
3130,-284.00,412.00,104.00
3135,-328.00,314.00,36.00
3140,-242.00,334.00,50.00
3145,-304.00,292.00,54.00
3150,-228.00,356.00,-4.00
3155,-218.00,248.00,102.00
3160,-246.00,184.00,84.00
3165,-162.00,224.00,124.00
3170,-58.00,294.00,-2.00
3175,98.00,236.00,60.00
3180,90.00,312.00,112.00
3185,70.00,318.00,42.00
3190,82.00,350.00,112.00
3195,114.00,302.00,72.00
3200,168.00,346.00,26.00
3205,206.00,406.00,-6.00
3210,230.00,392.00,110.00
3215,174.00,424.00,8.00
3220,268.00,420.00,40.00
3225,206.00,446.00,30.00
3230,186.00,398.00,66.00
3235,116.00,462.00,-4.00
3240,60.00,470.00,-24.00
3245,96.00,460.00,106.00
3250,178.00,652.00,-38.00
3255,126.00,624.00,46.00
3260,270.00,588.00,26.00
3265,268.00,536.00,82.00
3270,264.00,534.00,92.00
3275,280.00,652.00,38.00
3280,356.00,694.00,60.00
3285,420.00,696.00,-44.00
3290,460.00,738.00,40.00
3295,444.00,780.00,94.00
3300,492.00,778.00,-12.00
3305,434.00,742.00,-112.00
3310,376.00,588.00,150.00
3315,332.00,576.00,228.00
3320,512.00,738.00,202.00
3325,488.00,712.00,30.00
3330,384.00,526.00,232.00
3335,274.00,574.00,64.00
3340,362.00,552.00,-34.00
3345,340.00,546.00,-8.00
3350,254.00,408.00,6.00
3355,412.00,560.00,-162.00
3360,72.00,180.00,388.00
3365,8.00,216.00,52.00
3370,378.00,542.00,568.00
3375,200.00,454.00,32.00
3380,90.00,534.00,-456.00
3385,378.00,578.00,344.00
3390,254.00,550.00,32.00
3395,130.00,426.00,-290.00
3400,210.00,538.00,-70.00
3405,406.00,514.00,176.00
3410,204.00,486.00,122.00
3415,148.00,572.00,-44.00
3420,106.00,442.00,168.00
3425,94.00,372.00,-4.00
3430,36.00,384.00,-4.00
3435,172.00,362.00,-426.00
3440,46.00,330.00,144.00
3445,38.00,256.00,218.00
3450,-46.00,358.00,18.00
3455,120.00,446.00,76.00
3460,6.00,428.00,198.00
3465,-304.00,306.00,100.00
3470,-298.00,206.00,-94.00
3475,-146.00,194.00,72.00
3480,-118.00,316.00,-208.00
3485,-250.00,232.00,-54.00
3490,-28.00,304.00,348.00
3495,78.00,188.00,38.00
3500,130.00,352.00,16.00
3505,-44.00,214.00,-126.00
3510,-212.00,46.00,-190.00
3515,70.00,162.00,320.00
3520,18.00,64.00,58.00
3525,-22.00,206.00,-232.00
3530,32.00,298.00,136.00
3535,-50.00,386.00,132.00
3540,-178.00,396.00,556.00
3545,218.00,320.00,-144.00
3550,-176.00,498.00,228.00
3555,144.00,404.00,-466.00
3560,-18.00,530.00,282.00
3565,-58.00,516.00,270.00
3570,-2.00,544.00,274.00
3575,-112.00,530.00,50.00
3580,-82.00,438.00,-2.00
3585,-176.00,454.00,42.00
3590,-110.00,534.00,158.00
3595,6.00,408.00,62.00
3600,-26.00,540.00,132.00
3605,-104.00,442.00,156.00
3610,-46.00,458.00,72.00
3615,-102.00,316.00,-84.00
3620,-84.00,334.00,-186.00
3625,-122.00,492.00,160.00
3630,-114.00,434.00,32.00
3635,-138.00,502.00,22.00
3640,-190.00,476.00,88.00
3645,-426.00,386.00,228.00
3650,-476.00,332.00,116.00
3655,-384.00,188.00,58.00
3660,-596.00,176.00,-74.00
3665,-666.00,80.00,-46.00
3670,-382.00,-30.00,-14.00
3675,-254.00,102.00,82.00
3680,-170.00,8.00,106.00
3685,-172.00,206.00,-66.00
3690,-268.00,242.00,28.00
3695,-262.00,214.00,106.00
3700,-508.00,192.00,58.00
3705,-562.00,80.00,-110.00
3710,-788.00,64.00,8.00
3715,-830.00,156.00,-132.00
3720,-880.00,84.00,-222.00
3725,-910.00,4.00,-76.00
3730,-720.00,-56.00,202.00
3735,-408.00,60.00,142.00
3740,-530.00,36.00,360.00
3745,-548.00,-114.00,50.00
3750,-454.00,-56.00,-48.00
3755,-484.00,0.00,20.00
3760,-328.00,-80.00,-142.00
3765,-494.00,58.00,-82.00
3770,-562.00,-6.00,78.00
3775,-414.00,66.00,-136.00
3780,-674.00,252.00,156.00
3785,-820.00,148.00,8.00
3790,-714.00,-78.00,-128.00
3795,-644.00,-132.00,192.00
3800,-452.00,-242.00,-298.00
3805,-548.00,-220.00,-8.00
3810,-778.00,-198.00,-102.00
3815,-914.00,-104.00,188.00
3820,-624.00,-146.00,98.00
3825,-610.00,76.00,-52.00
3830,-708.00,6.00,-126.00
3835,-906.00,-90.00,18.00
3840,-944.00,-244.00,20.00
3845,-1066.00,-260.00,88.00
3850,-1186.00,-314.00,46.00
3855,-940.00,-302.00,-124.00
3860,-770.00,-34.00,-12.00
3865,-724.00,-36.00,-204.00
3870,-724.00,106.00,-238.00
3875,-926.00,156.00,-72.00
3880,-940.00,-50.00,-46.00
3885,-962.00,-110.00,220.00
3890,-982.00,-206.00,306.00
3895,-858.00,-180.00,92.00
3900,-732.00,-68.00,46.00
3905,-610.00,74.00,-28.00
3910,-684.00,126.00,-218.00
3915,-684.00,142.00,-122.00
3920,-854.00,-6.00,92.00
3925,-776.00,-506.00,80.00
3930,-522.00,186.00,402.00
3935,-1020.00,228.00,-470.00
3940,-596.00,302.00,-436.00
3945,-466.00,290.00,164.00
3950,-502.00,90.00,90.00
3955,-612.00,-40.00,-94.00
3960,-692.00,84.00,184.00
3965,-694.00,52.00,318.00
3970,-594.00,84.00,126.00
3975,-568.00,234.00,-8.00
3980,-546.00,230.00,-164.00
3985,-504.00,208.00,30.00
3990,-480.00,276.00,14.00
3995,-616.00,238.00,6.00
4000,-764.00,54.00,-16.00
4005,-662.00,-18.00,32.00
4010,-702.00,-28.00,94.00
4015,-762.00,-70.00,70.00
4020,-846.00,58.00,-42.00
4025,-802.00,42.00,-6.00
4030,-704.00,180.00,-68.00
4035,-634.00,142.00,68.00
4040,-730.00,162.00,24.00
4045,-772.00,94.00,112.00
4050,-800.00,56.00,8.00
4055,-696.00,94.00,42.00
4060,-696.00,22.00,78.00
4065,-660.00,110.00,6.00
4070,-648.00,30.00,68.00
4075,-674.00,98.00,42.00
4080,-634.00,168.00,-34.00
4085,-678.00,120.00,-82.00
4090,-584.00,146.00,6.00
4095,-672.00,190.00,58.00
4100,-646.00,124.00,-12.00
4105,-636.00,76.00,0.00
4110,-670.00,150.00,14.00
4115,-632.00,136.00,-6.00
4120,-556.00,124.00,102.00
4125,-466.00,198.00,38.00
4130,-514.00,182.00,-70.00
4135,-456.00,156.00,40.00
4140,-502.00,192.00,58.00
4145,-442.00,192.00,2.00
4150,-420.00,302.00,-66.00
4155,-424.00,340.00,-48.00
4160,-522.00,294.00,-18.00
4165,-484.00,234.00,-134.00
4170,-594.00,194.00,-134.00
4175,-706.00,76.00,58.00
4180,-748.00,42.00,100.00
4185,-854.00,112.00,32.00
4190,-834.00,88.00,14.00
4195,-700.00,132.00,104.00
4200,-614.00,100.00,144.00
4205,-580.00,118.00,42.00
4210,-522.00,176.00,84.00
4215,-516.00,156.00,34.00
4220,-578.00,184.00,-18.00
4225,-532.00,178.00,18.00
4230,-436.00,224.00,94.00
4235,-440.00,256.00,-58.00
4240,-440.00,202.00,-54.00
4245,-386.00,340.00,42.00
4250,-436.00,256.00,-84.00
4255,-434.00,242.00,-6.00
4260,-438.00,206.00,12.00
4265,-432.00,170.00,54.00
4270,-412.00,108.00,-28.00
4275,-408.00,206.00,-56.00
4280,-374.00,232.00,0.00
4285,-410.00,286.00,-134.00
4290,-424.00,300.00,-2.00
4295,-392.00,230.00,-88.00
4300,-416.00,226.00,-40.00
4305,-386.00,270.00,-22.00
4310,-392.00,232.00,20.00
4315,-448.00,262.00,12.00
4320,-416.00,170.00,-8.00
4325,-492.00,230.00,-52.00
4330,-462.00,178.00,18.00
4335,-460.00,148.00,104.00
4340,-478.00,216.00,10.00
4345,-484.00,190.00,-48.00
4350,-490.00,238.00,52.00
4355,-448.00,236.00,28.00
4360,-546.00,250.00,-50.00
4365,-490.00,208.00,4.00
4370,-496.00,196.00,38.00
4375,-494.00,250.00,-44.00
4380,-582.00,282.00,-26.00
4385,-586.00,250.00,-28.00
4390,-606.00,206.00,6.00
4395,-572.00,176.00,64.00
4400,-634.00,44.00,84.00
4405,-648.00,14.00,118.00
4410,-586.00,-12.00,108.00
4415,-542.00,0.00,46.00
4420,-446.00,88.00,118.00
4425,-496.00,118.00,50.00
4430,-524.00,262.00,6.00
4435,-548.00,254.00,32.00
4440,-594.00,298.00,-26.00
4445,-638.00,284.00,32.00
4450,-620.00,282.00,32.00
4455,-662.00,232.00,6.00
4460,-692.00,198.00,6.00
4465,-696.00,198.00,24.00
4470,-710.00,162.00,-64.00
4475,-690.00,128.00,-90.00
4480,-570.00,102.00,94.00
4485,-542.00,224.00,64.00
4490,-518.00,238.00,18.00
4495,-484.00,258.00,-80.00
4500,-496.00,326.00,-66.00
4505,-436.00,318.00,-110.00
4510,-508.00,308.00,-152.00
4515,-558.00,350.00,0.00
4520,-596.00,214.00,56.00
4525,-622.00,156.00,142.00
4530,-736.00,170.00,-18.00
4535,-714.00,136.00,-34.00
4540,-710.00,206.00,6.00
4545,-570.00,122.00,-34.00
4550,-634.00,252.00,-130.00
4555,-698.00,238.00,-2.00
4560,-670.00,254.00,6.00
4565,-714.00,160.00,14.00
4570,-784.00,200.00,-22.00
4575,-814.00,74.00,138.00
4580,-720.00,86.00,88.00
4585,-654.00,116.00,74.00
4590,-638.00,104.00,30.00
4595,-646.00,184.00,8.00
4600,-592.00,170.00,122.00
4605,-616.00,206.00,-52.00
4610,-742.00,170.00,-38.00
4615,-770.00,240.00,56.00
4620,-744.00,194.00,92.00
4625,-702.00,120.00,-6.00
4630,-712.00,116.00,42.00
4635,-694.00,154.00,52.00
4640,-654.00,188.00,40.00
4645,-718.00,38.00,-68.00
4650,-688.00,152.00,70.00
4655,-528.00,-54.00,-166.00
4660,-542.00,252.00,562.00
4665,-558.00,256.00,30.00
4670,-684.00,-60.00,26.00
4675,-554.00,164.00,-12.00
4680,-570.00,60.00,186.00
4685,-482.00,122.00,54.00
4690,-456.00,220.00,198.00
4695,-452.00,106.00,58.00
4700,-522.00,296.00,22.00
4705,-524.00,250.00,-64.00
4710,-454.00,238.00,34.00
4715,-492.00,266.00,34.00
4720,-524.00,316.00,6.00
4725,-518.00,346.00,-90.00
4730,-534.00,262.00,22.00
4735,-488.00,278.00,86.00
4740,-560.00,338.00,56.00
4745,-506.00,364.00,-22.00
4750,-482.00,402.00,58.00
4755,-550.00,462.00,-58.00
4760,-620.00,448.00,-262.00
4765,-566.00,418.00,-178.00
4770,-580.00,388.00,-72.00
4775,-594.00,386.00,-10.00
4780,-620.00,440.00,70.00
4785,-752.00,382.00,-362.00
4790,-604.00,1098.00,-774.00
4795,-754.00,158.00,436.00
4800,-554.00,342.00,-50.00
4805,-404.00,762.00,200.00
4810,-564.00,538.00,-288.00
4815,-778.00,440.00,-548.00
4820,-712.00,526.00,-578.00
4825,-604.00,496.00,-404.00
4830,-558.00,370.00,-124.00
4835,-384.00,384.00,0.00
4840,-256.00,268.00,-136.00
4845,-254.00,186.00,-14.00
4850,728.00,52.00,4354.00
4855,784.00,280.00,-1208.00
4860,444.00,158.00,-466.00
4865,-106.00,226.00,30.00
4870,-394.00,274.00,280.00
4875,-276.00,298.00,276.00
4880,-102.00,330.00,248.00
4885,-82.00,272.00,198.00
4890,-142.00,448.00,142.00
